File: Calibration/XRD_TRIMDAC_CAL/scan_fits.dat
0  0 1.44 60 0  0 1.44 60 0  0 1.44 60 0  0 1.44 60 0
2  250.093 1.27996 94.4538 0.295508  250.353 1.26552 84.8393 -0.236449  250.363 1.29677 84.4196 -0.354999  249.712 1.27199 99.2669 0.814021
4  0 1.44 60 0  0 1.44 60 0  0 1.44 60 0  0 1.44 60 0
6  0 1.44 60 0  0 1.44 60 0  0 1.44 60 0  0 1.44 60 0
8  0 1.44 60 0  0 1.44 60 0  0 1.44 60 0  0 1.44 60 0
10  0 1.44 60 0  0 1.44 60 0  0 1.44 60 0  0 1.44 60 0
12  0 1.44 60 0  0 1.44 60 0  0 1.44 60 0  0 1.44 60 0
14  0 1.44 60 0  0 1.44 60 0  0 1.44 60 0  0 1.44 60 0
16  0 1.44 60 0  0 1.44 60 0  0 1.44 60 0  0 1.44 60 0
18  0 1.44 60 0  0 1.44 60 0  0 1.44 60 0  0 1.44 60 0
20  0 1.44 60 0  0 1.44 60 0  0 1.44 60 0  0 1.44 60 0
22  0 1.44 60 0  0 1.44 60 0  0 1.44 60 0  0 1.44 60 0
24  0 1.44 60 0  0 1.44 60 0  0 1.44 60 0  0 1.44 60 0
26  0 1.44 60 0  0 1.44 60 0  0 1.44 60 0  0 1.44 60 0
28  0 1.44 60 0  0 1.44 60 0  0 1.44 60 0  0 1.44 60 0
30  0 1.44 60 0  0 1.44 60 0  0 1.44 60 0  0 1.44 60 0
32  250.116 1.25454 87.0724 -0.0212227  249.999 1.21561 92.0152 -0.165367  249.985 1.25605 85.5541 0.0230027  249.357 1.23502 98.7234 1.17177
34  250.379 1.25168 84.6462 0.0111725  250.092 1.23631 93.171 -0.603393  250.187 1.25549 84.6383 0.0961215  250.257 1.23207 87.5965 -0.471395
36  249.531 1.26209 102.548 -0.0883857  249.204 1.23516 106.97 1.50502  249.55 1.24499 106.733 0.421101  249.709 1.24509 102.273 0.370483
38  250.05 1.27514 93.869 -0.0173668  250.021 1.26163 92.3502 -0.670791  249.635 1.27745 110.9 0.941791  250.05 1.27585 78.0714 -0.0956878
40  249.755 1.26823 102.234 0.227815  249.841 1.25239 91.2024 0.37183  250.029 1.25511 91.6529 -0.0743149  250.288 1.25363 85.9535 -0.475324
42  249.929 1.28193 92.2196 -0.0460624  250.067 1.2688 83.6989 -0.139573  249.674 1.27486 96.4319 0.308804  249.918 1.27075 89.8342 -0.135558
44  250.639 1.23287 85.1379 -0.0575285  249.394 1.21128 101.122 1.32948  250.176 1.22307 97.9746 0.23501  249.987 1.22849 94.5365 -0.126018
46  249.301 1.24499 113.848 0.341885  249.71 1.23545 104.068 0.594824  249.211 1.24106 101.988 -0.452874  249.97 1.22542 92.1035 0.224715
48  249.373 1.24638 106.533 0.372076  250.272 1.24456 86.4972 -0.290623  249.487 1.24729 107.647 0.4404  250.093 1.23046 92.2457 -0.158141
50  250.052 1.29827 89.1659 -0.256488  249.993 1.25823 96.3195 -0.3154  249.913 1.29122 91.4762 -0.376922  250.097 1.27289 88.7007 -0.152952
52  250.076 1.22899 93.2544 0.227368  250.12 1.20794 87.3095 -0.254005  249.714 1.23785 89.8585 -0.049284  249.887 1.22325 84.9091 0.271385
54  0 1.44 60 0  0 1.44 60 0  0 1.44 60 0  0 1.44 60 0
56  249.967 1.2836 90.7324 0.338142  249.759 1.26303 91.2139 0.0166262  249.746 1.29478 91.457 -0.184112  249.923 1.27539 92.2032 0.221641
58  249.906 1.26887 94.223 0.688106  250.294 1.24237 88.8134 -0.695345  249.963 1.26937 93.8323 -0.0175455  249.888 1.24023 100.713 0.387738
60  0 1.44 60 0  0 1.44 60 0  0 1.44 60 0  0 1.44 60 0
62  0 1.44 60 0  0 1.44 60 0  0 1.44 60 0  0 1.44 60 0
64  0 1.44 60 0  0 1.44 60 0  0 1.44 60 0  0 1.44 60 0
66  250.253 1.24297 88.0661 -0.241868  249.91 1.22612 94.6065 0.227837  250.022 1.23944 93.7498 -0.321611  250.22 1.23222 93.3263 -0.625511
68  249.555 1.231 94.3181 -0.112369  250.086 1.22026 79.736 0.120365  250.303 1.23583 87.8724 -0.171724  249.868 1.22906 104.534 0.0944789
70  250.218 1.2947 83.9116 -0.308933  249.512 1.28266 95.6443 1.11333  249.857 1.30995 84.6074 0.299034  250.09 1.27873 86.3613 0.322289
72  249.477 1.25455 104.555 0.11864  249.909 1.26053 92.8931 0.120076  249.785 1.28456 96.5937 0.269026  250.224 1.24236 81.8625 -0.239257
74  250.074 1.2247 91.6792 -0.109979  249.049 1.18807 104.048 1.5635  250.651 1.21055 88.0637 0.0871177  251.018 1.19413 88.2045 -2.0745
76  249.976 1.25887 95.7317 0.379223  250.273 1.24101 86.0587 -0.663123  249.64 1.26247 103.812 -0.047181  249.195 1.25448 103.789 1.32666
78  250.018 1.26049 87.6591 0.123724  249.91 1.25395 96.2335 0.155298  249.729 1.26431 103.07 0.239048  249.866 1.24145 87.369 0.540919
80  249.887 1.2296 90.7929 -0.144565  250.052 1.20683 97.01 -0.935283  250.362 1.23735 82.8423 -0.30264  250.452 1.20674 82.1393 -1.19684
82  249.878 1.27792 90.7682 0.116251  249.929 1.26268 92.7087 -0.317638  249.934 1.28047 86.2998 -0.458698  249.666 1.25587 99.5005 0.591497
84  250.059 1.25991 91.101 0.0664924  250.249 1.24751 85.2825 -0.36386  250.159 1.25829 85.9669 -0.453694  250.188 1.23455 89.827 -0.396141
86  0 1.44 60 0  0 1.44 60 0  0 1.44 60 0  0 1.44 60 0
88  249.822 1.25847 102.141 0.129193  249.924 1.24523 89.4078 0.270386  249.484 1.26589 108.184 0.811892  250.317 1.26299 88.4502 -0.6183
90  0 1.44 60 0  0 1.44 60 0  0 1.44 60 0  0 1.44 60 0
92  0 1.44 60 0  0 1.44 60 0  0 1.44 60 0  0 1.44 60 0
94  0 1.44 60 0  0 1.44 60 0  0 1.44 60 0  0 1.44 60 0
96  0 1.44 60 0  0 1.44 60 0  0 1.44 60 0  0 1.44 60 0
98  250.393 1.23214 86.4899 0.101322  249.641 1.2249 91.3054 0.643904  250.058 1.24965 91.3926 0.0917236  250.337 1.21497 81.2499 -0.620712
100  0 1.44 60 0  0 1.44 60 0  0 1.44 60 0  0 1.44 60 0
102  0 1.44 60 0  0 1.44 60 0  0 1.44 60 0  0 1.44 60 0
104  0 1.44 60 0  0 1.44 60 0  0 1.44 60 0  0 1.44 60 0
106  0 1.44 60 0  0 1.44 60 0  0 1.44 60 0  0 1.44 60 0
108  0 1.44 60 0  0 1.44 60 0  0 1.44 60 0  0 1.44 60 0
110  0 1.44 60 0  0 1.44 60 0  0 1.44 60 0  0 1.44 60 0
112  0 1.44 60 0  0 1.44 60 0  0 1.44 60 0  0 1.44 60 0
114  0 1.44 60 0  0 1.44 60 0  0 1.44 60 0  0 1.44 60 0
116  0 1.44 60 0  0 1.44 60 0  0 1.44 60 0  0 1.44 60 0
118  250.076 1.24926 92.6509 0.195134  250.523 1.23332 85.7991 -1.09925  250.142 1.23657 89.0985 -0.138979  249.949 1.23498 99.846 0.0102288
120  0 1.44 60 0  0 1.44 60 0  0 1.44 60 0  0 1.44 60 0
122  0 1.44 60 0  0 1.44 60 0  0 1.44 60 0  0 1.44 60 0
124  0 1.44 60 0  0 1.44 60 0  0 1.44 60 0  0 1.44 60 0
126  0 1.44 60 0  0 1.44 60 0  0 1.44 60 0  0 1.44 60 0
128  250.081 1.26916 88.3152 0.0820666  250.034 1.23621 84.9294 -0.131475  249.989 1.26945 89.9447 0.174145  249.569 1.25397 90.2275 0.523881
130  250.166 1.26735 81.5203 -0.283071  249.506 1.24282 97.9881 0.932734  249.845 1.28007 90.3288 0.249252  250.097 1.25021 87.594 -0.138686
132  249.986 1.27118 95.5323 -0.0859162  249.835 1.24637 94.5076 -0.175103  249.87 1.27677 94.4969 0.53474  250.057 1.242 95.4212 -0.354043
134  250.013 1.22851 91.1654 0.254239  249.322 1.22634 98.4562 1.25114  249.825 1.22399 94.594 0.0502292  250.38 1.21253 82.7628 -1.02644
136  249.951 1.25909 89.3773 0.237823  249.856 1.2473 90.0806 0.00268384  250.239 1.2612 80.6109 -0.404441  250.347 1.24262 85.3039 -0.684575
138  250.086 1.26636 88.4759 -0.042081  250.166 1.24769 88.0048 -0.258082  250.08 1.25024 91.5487 -0.0017688  249.994 1.26212 87.6472 -0.489837
140  249.402 1.25785 103.481 0.594194  249.966 1.23581 87.0782 0.117231  249.978 1.26439 87.4379 0.0627108  250.283 1.24017 91.5264 -1.1203
142  250.198 1.29286 74.4306 -0.188131  249.352 1.26266 99.6377 1.4988  250.075 1.29064 79.4527 -0.0755621  250.016 1.26719 86.3333 -0.128351
144  250.077 1.29144 87.0705 -0.036782  249.827 1.26547 88.4702 0.102729  249.811 1.2799 92.484 -0.0221344  250.114 1.2672 80.9898 -0.315939
146  249.809 1.28429 85.2192 0.261168  249.943 1.25871 81.8008 0.426648  250.156 1.2727 81.6268 -0.0992656  250.348 1.246 79.8518 -0.493704
148  249.738 1.25381 101.789 0.121298  249.838 1.24006 88.3603 0.524955  250.146 1.26818 93.8096 -0.284661  249.43 1.23664 105.319 0.746394
150  250.06 1.25598 96.4086 -0.0106131  250.342 1.25429 85.8946 -0.599918  250.075 1.25971 91.589 -0.131812  250.023 1.25693 91.6212 -0.225199
152  250.219 1.21395 99.9911 -0.0574764  249.244 1.20426 103.48 1.15553  250.231 1.22833 93.5651 0.248764  249.723 1.19114 82.888 0.869981
154  249.773 1.24544 94.4318 -0.222298  249.712 1.24039 98.2906 0.772024  249.89 1.23826 91.9246 -0.528499  249.427 1.23369 102.659 1.27123
156  249.961 1.27967 86.137 0.168542  249.731 1.26584 89.7584 -0.0208517  249.994 1.26866 99.514 -0.336318  249.691 1.25389 100.575 0.40119
158  250.307 1.24163 86.8981 -0.094673  249.745 1.20711 97.1057 0.309496  250.035 1.25771 89.5743 -0.195739  250.098 1.20823 99.5145 -0.567266
160  0 1.44 60 0  0 1.44 60 0  0 1.44 60 0  0 1.44 60 0
162  0 1.44 60 0  0 1.44 60 0  0 1.44 60 0  0 1.44 60 0
164  250.124 1.33381 84.7791 -0.326534  249.353 1.31698 97.5804 0.365269  250.067 1.31947 85.7056 -0.0578548  249.939 1.32338 85.9657 -0.228343
166  0 1.44 60 0  0 1.44 60 0  0 1.44 60 0  0 1.44 60 0
168  249.526 1.26708 113.082 1.08144  250.148 1.28732 83.1114 0.383105  249.842 1.28627 89.304 0.200227  250.006 1.25711 89.6025 -0.208784
170  250.21 1.29925 82.7079 -0.291272  250.252 1.28496 81.5195 -0.0126138  250.032 1.31033 92.7465 0.387285  249.796 1.27393 94.588 0.458184
172  0 1.44 60 0  0 1.44 60 0  0 1.44 60 0  0 1.44 60 0
174  0 1.44 60 0  0 1.44 60 0  0 1.44 60 0  0 1.44 60 0
176  249.599 1.26424 97.5916 0.422528  249.302 1.24303 100.882 1.4137  250.421 1.26547 82.0954 -0.196956  249.765 1.27277 95.6288 0.25199
178  249.635 1.30995 95.1479 -0.0521499  250.172 1.28315 79.878 -0.0996038  250.206 1.29655 82.2941 -0.855716  250.337 1.28333 84.3374 -1.0302
180  249.954 1.27021 97.3363 0.5297  250.185 1.27306 86.3218 -0.487167  250.055 1.28081 91.5281 0.273561  249.971 1.26974 94.6734 0.225621
182  0 1.44 60 0  0 1.44 60 0  0 1.44 60 0  0 1.44 60 0
184  0 1.44 60 0  0 1.44 60 0  0 1.44 60 0  0 1.44 60 0
186  250.15 1.3085 83.4493 -0.854311  250.076 1.3002 82.8359 -0.359239  249.822 1.30535 89.839 -0.109384  250.327 1.28399 81.0226 -0.264897
188  0 1.44 60 0  0 1.44 60 0  0 1.44 60 0  0 1.44 60 0
190  0 1.44 60 0  0 1.44 60 0  0 1.44 60 0  0 1.44 60 0
192  250.106 1.26314 88.3144 0.199527  250.254 1.24639 86.1158 -0.18627  250.094 1.25564 96.1652 0.0885087  250.164 1.25693 86.6505 -0.194683
194  250.152 1.24095 84.6859 0.135774  250.213 1.2423 84.4833 -0.214126  249.66 1.24207 87.7518 -0.168973  249.684 1.24545 92.1447 0.643665
196  250.243 1.26095 89.0542 0.19244  250.56 1.24576 77.5725 -0.614107  249.955 1.2573 94.2889 0.500521  249.544 1.26522 99.2293 0.41899
198  250.074 1.24597 91.6975 -0.124328  250.578 1.24487 78.9842 -1.2408  250.133 1.25932 88.1117 0.276376  249.831 1.23674 87.9242 0.737348
200  249.885 1.28633 85.6978 0.964149  250.033 1.29672 88.0995 -0.194278  250.128 1.28848 80.2288 0.44113  250.179 1.27057 87.2094 -0.689094
202  250.02 1.25725 91.486 0.128223  249.945 1.24774 89.6934 0.445957  250.178 1.25628 90.8742 0.150879  249.881 1.26964 88.6722 -0.0881168
204  249.917 1.27537 93.0081 -0.00913699  250.012 1.26908 89.7998 -0.290297  249.765 1.2727 90.9659 0.102955  250.152 1.27401 81.6605 -0.161909
206  250.186 1.24632 80.5597 -0.387225  250.192 1.24787 87.2897 -0.038919  250.384 1.26459 84.4838 -0.39646  249.568 1.24515 97.5299 0.863942
208  249.957 1.24716 92.3764 -0.225315  249.427 1.23426 106.909 0.940968  250.491 1.23536 78.2363 -0.465774  250.024 1.25151 90.9362 -0.0843126
210  250.12 1.26779 93.0734 0.105411  249.673 1.26557 100.023 0.406803  250.347 1.27364 84.9239 -0.142159  249.36 1.26133 96.0934 1.50358
212  249.808 1.25934 99.9521 0.308102  249.688 1.26329 102.774 0.415154  249.993 1.26122 96.4126 0.352602  249.427 1.26312 104.367 0.961898
214  250.018 1.27006 88.4657 -0.271676  249.91 1.2639 99.5572 -0.118461  249.779 1.28069 93.0484 0.214594  250.008 1.26786 91.9805 -0.255824
216  249.707 1.28556 93.1637 0.492169  249.947 1.30924 89.8818 -0.1097  249.783 1.28871 90.1177 0.563888  249.794 1.3192 97.9738 0.0849388
218  250.405 1.29284 78.1326 -0.0885985  250.45 1.27542 85.5862 -0.63793  250.038 1.27236 92.9098 -0.00934836  249.645 1.28423 98.0949 0.119012
220  250.086 1.2661 92.3297 -0.0365438  249.625 1.23342 91.6593 0.858581  249.89 1.2534 99.7495 0.0828727  250.019 1.24317 84.9958 -0.101871
222  250.198 1.29673 78.2 -0.0657865  250.086 1.2936 79.4246 -0.24398  249.802 1.31692 92.0572 0.258264  250.162 1.29607 77.9301 -0.301672
224  0 1.44 60 0  0 1.44 60 0  0 1.44 60 0  0 1.44 60 0
226  250.111 1.29191 78.8134 -0.249176  249.948 1.29632 84.4544 -0.103688  250.211 1.29929 76.0656 -0.791106  249.97 1.30724 83.111 0.117503
228  0 1.44 60 0  0 1.44 60 0  0 1.44 60 0  0 1.44 60 0
230  0 1.44 60 0  0 1.44 60 0  0 1.44 60 0  0 1.44 60 0
232  0 1.44 60 0  0 1.44 60 0  0 1.44 60 0  0 1.44 60 0
234  0 1.44 60 0  0 1.44 60 0  0 1.44 60 0  0 1.44 60 0
236  249.586 1.27793 97.2546 1.32007  249.823 1.28255 93.1622 0.0828289  249.933 1.28747 90.2863 0.361314  250.031 1.27722 86.3183 0.251208
238  0 1.44 60 0  0 1.44 60 0  0 1.44 60 0  0 1.44 60 0
240  0 1.44 60 0  0 1.44 60 0  0 1.44 60 0  0 1.44 60 0
242  249.863 1.30909 85.7996 -0.274706  250.121 1.30561 80.304 0.122317  250.411 1.32638 80.0586 -0.581086  249.782 1.29812 88.9205 -0.163638
244  0 1.44 60 0  0 1.44 60 0  0 1.44 60 0  0 1.44 60 0
246  249.855 1.23571 90.5778 -0.0243717  249.418 1.24544 110.043 1.0475  249.904 1.23651 89.6699 0.26809  250.123 1.24904 95.372 -0.936848
248  0 1.44 60 0  0 1.44 60 0  0 1.44 60 0  0 1.44 60 0
250  249.913 1.26753 97.7323 0.0275331  249.76 1.2844 98.719 0.256902  249.758 1.2823 87.0809 0.372316  249.555 1.26689 103.245 -0.0310217
252  0 1.44 60 0  0 1.44 60 0  0 1.44 60 0  0 1.44 60 0
254  0 1.44 60 0  0 1.44 60 0  0 1.44 60 0  0 1.44 60 0
256  250.301 1.24178 83.5386 0.106279  250.127 1.25766 83.1175 0.120759  249.48 1.25485 93.0038 0.278961  250.084 1.24632 84.6518 0.164325
258  250.168 1.28537 80.8063 0.133329  250.261 1.27508 82.1974 -0.266482  250.027 1.279 84.8084 0.280794  250.053 1.28085 87.8827 -0.38428
260  250.308 1.28496 75.1642 -0.161526  249.485 1.26244 89.388 1.14985  250.08 1.28782 82.2028 -0.0731691  250.072 1.2798 88.1857 -0.204193
262  250.217 1.21409 89.8052 0.00863135  249.466 1.20439 96.0406 0.599209  249.723 1.22254 95.1267 -0.0105315  250.073 1.21744 97.2045 -0.986889
264  249.953 1.33524 81.6869 0.0928196  250.007 1.31109 81.9921 0.253121  249.569 1.31588 89.6298 0.362135  250.35 1.32796 75.9394 -0.116203
266  250.193 1.26549 86.5071 0.142986  249.893 1.23872 87.2361 0.606844  250.486 1.24457 81.3052 -0.539964  249.717 1.21745 92.3299 0.0683174
268  249.923 1.26037 94.271 -0.0175143  249.682 1.26185 95.1908 0.374629  249.494 1.25696 92.8383 -0.0758471  249.783 1.25127 90.6056 0.544505
270  250.339 1.28521 77.526 -0.140016  250.189 1.27781 83.1235 -0.155333  250.236 1.30719 79.5571 -0.553913  250.085 1.28009 83.5388 -0.259892
272  250.382 1.24209 77.2098 0.0153172  249.757 1.22679 89.6552 -0.0452207  250.215 1.23404 95.0662 0.296831  250.108 1.22504 86.7917 -0.156545
274  249.559 1.25215 100.072 -0.12389  250.179 1.22495 86.7619 -0.301897  250.203 1.23956 89.2655 0.181409  250.181 1.22748 80.8565 -0.0423908
276  250.465 1.24606 75.2805 -0.205191  249.674 1.26391 95.4012 0.344345  249.606 1.25483 93.8575 -0.0957217  250.342 1.26177 83.8692 -0.796266
278  0 1.44 60 0  0 1.44 60 0  0 1.44 60 0  0 1.44 60 0
280  249.735 1.27151 92.0042 0.0822107  249.763 1.24764 92.9122 0.300301  249.727 1.27307 90.4444 0.339251  249.689 1.25495 89.9419 0.317418
282  250.274 1.28688 78.399 -0.257094  249.586 1.2844 99.6998 0.663799  249.869 1.30268 91.8512 -0.0550651  250.049 1.29003 81.2316 -0.00490519
284  250.715 1.24165 78.6003 0.230941  249.902 1.2268 96.3854 0.0814657  249.965 1.23752 94.7784 0.67343  250.594 1.22593 82.7265 -0.743902
286  250.186 1.26868 84.6692 -0.467784  249.547 1.2642 93.0045 0.259952  250.125 1.24876 83.2726 0.0394451  250.312 1.24576 84.6631 -0.630955
288  0 1.44 60 0  0 1.44 60 0  0 1.44 60 0  0 1.44 60 0
290  0 1.44 60 0  0 1.44 60 0  0 1.44 60 0  0 1.44 60 0
292  0 1.44 60 0  0 1.44 60 0  0 1.44 60 0  0 1.44 60 0
294  0 1.44 60 0  0 1.44 60 0  0 1.44 60 0  0 1.44 60 0
296  0 1.44 60 0  0 1.44 60 0  0 1.44 60 0  0 1.44 60 0
298  0 1.44 60 0  0 1.44 60 0  0 1.44 60 0  0 1.44 60 0
300  0 1.44 60 0  0 1.44 60 0  0 1.44 60 0  0 1.44 60 0
302  0 1.44 60 0  0 1.44 60 0  0 1.44 60 0  0 1.44 60 0
304  0 1.44 60 0  0 1.44 60 0  0 1.44 60 0  0 1.44 60 0
306  0 1.44 60 0  0 1.44 60 0  0 1.44 60 0  0 1.44 60 0
308  0 1.44 60 0  0 1.44 60 0  0 1.44 60 0  0 1.44 60 0
310  0 1.44 60 0  0 1.44 60 0  0 1.44 60 0  0 1.44 60 0
312  0 1.44 60 0  0 1.44 60 0  0 1.44 60 0  0 1.44 60 0
314  0 1.44 60 0  0 1.44 60 0  0 1.44 60 0  0 1.44 60 0
316  0 1.44 60 0  0 1.44 60 0  0 1.44 60 0  0 1.44 60 0
318  0 1.44 60 0  0 1.44 60 0  0 1.44 60 0  0 1.44 60 0
320  249.883 1.27667 83.1268 -0.258941  249.996 1.26955 83.3581 0.361213  249.33 1.27382 100.87 0.306961  249.979 1.25932 93.9228 -0.512519
322  250.348 1.33406 79.9092 -0.405449  249.698 1.3162 88.4045 0.28619  249.16 1.30389 94.9094 0.497678  249.981 1.32344 90.5399 0.202446
324  249.959 1.25927 96.0224 0.165287  250.199 1.26446 86.7142 -0.113132  249.785 1.27761 98.0162 0.555693  249.954 1.25926 96.5824 -0.103577
326  250.265 1.27241 79.1246 -0.423912  250.49 1.26547 78.7856 -0.497403  250.374 1.26265 86.2295 -0.0891249  250.265 1.28254 84.4469 -0.321358
328  250.276 1.2921 82.4376 -0.0827742  250.013 1.28951 89.5884 0.192155  250.125 1.28913 84.4681 0.047951  249.855 1.291 94.5878 0.494244
330  249.798 1.25148 92.9841 0.108995  250.254 1.22184 84.1296 -0.585778  250.415 1.24309 80.9646 -0.295838  250.317 1.24542 87.038 -0.292823
332  250.099 1.27575 85.583 -0.385953  249.609 1.27234 94.6926 0.609078  250.429 1.26284 84.8699 -0.0879595  249.99 1.2694 87.5612 -0.0868823
334  249.801 1.25697 100.727 0.445718  250.32 1.26634 83.9226 -0.248871  249.91 1.25496 97.2553 0.130561  250.115 1.26334 87.5535 -0.260756
336  250.181 1.29248 81.5779 -0.177684  249.761 1.29794 91.5894 0.358864  250.111 1.29684 79.259 -0.606563  250.075 1.2815 85.1423 -0.265192
338  249.839 1.25853 101.47 0.546833  249.747 1.25811 98.9824 -0.0195278  250.107 1.26406 92.467 0.0404835  250.086 1.27236 82.0413 -0.068236
340  250.363 1.29381 82.2909 -0.337803  249.598 1.31196 97.7863 0.832326  249.917 1.29947 88.7319 -0.149447  249.839 1.29707 99.381 0.262471
342  250.106 1.24328 90.3779 -0.0774048  250.332 1.26567 82.8168 -0.164769  249.987 1.24845 89.1575 -0.354277  249.685 1.25087 97.0417 0.731678
344  250.06 1.24842 88.6938 -0.287126  249.723 1.25371 101.193 0.450681  249.981 1.2599 98.9147 0.14222  250.147 1.23923 88.0169 -0.150654
346  250.003 1.23012 88.8554 -0.121586  250.421 1.21724 85.7164 -1.0894  249.798 1.21843 94.4028 -0.18929  249.934 1.22294 87.1851 0.314965
348  249.951 1.30456 81.606 -0.131943  249.871 1.29656 89.7122 0.25473  250.416 1.31473 79.0103 -0.612215  249.487 1.29317 98.9317 0.934636
350  0 1.44 60 0  0 1.44 60 0  0 1.44 60 0  0 1.44 60 0
352  250.223 1.3401 71.2069 -0.198024  249.912 1.33195 75.996 0.14846  250.208 1.3275 71.6383 -0.182317  250.43 1.33342 67.7912 0.0546623
354  249.962 1.31053 88.3003 0.271886  249.63 1.3033 99.5133 0.503446  249.64 1.3023 100.942 0.162053  249.921 1.31461 94.6816 0.246764
356  250.231 1.24021 94.2207 0.398087  250.091 1.23749 94.9558 0.20859  249.436 1.26245 107.33 -0.041294  249.942 1.24738 99.9407 0.457807
358  249.787 1.27865 92.384 0.827244  250.056 1.29492 87.3302 0.00327744  250.636 1.29674 74.9305 -0.930016  250.079 1.29044 92.8642 -0.14704
360  250.525 1.24615 82.633 -0.44024  250.294 1.25645 87.9239 -0.281404  250.09 1.25197 83.9564 -0.266737  249.698 1.24773 95.473 0.934806
362  250.541 1.28307 75.5159 0.146562  250.065 1.28874 90.4109 -0.280525  250.105 1.28981 88.0046 -0.173459  249.909 1.2966 84.5582 -0.153008
364  250.209 1.31883 78.7545 -0.575675  249.973 1.30975 80.7661 -0.0226131  249.982 1.30563 72.7882 0.188025  250.362 1.32857 71.4619 -0.400191
366  249.662 1.27075 99.4405 -0.131092  250.169 1.27763 86.0228 0.164946  249.936 1.28947 92.8966 0.507486  249.562 1.28462 103.934 0.531539
368  249.782 1.257 98.3127 0.384712  249.941 1.26086 96.3436 0.25161  250.017 1.27992 97.9176 -0.136489  250.088 1.26028 96.8421 -0.550724
370  250.132 1.29114 80.4717 0.119916  250.266 1.29407 84.3703 -0.404632  249.885 1.2885 95.2101 0.492645  249.909 1.30597 92.9103 0.353944
372  249.63 1.27206 106.711 -0.0256123  249.914 1.2822 85.8427 0.407517  249.978 1.29429 88.9121 -0.0298501  249.794 1.2879 98.6518 0.126708
374  249.704 1.2763 101.257 0.536006  250.05 1.28781 88.6779 -0.379632  249.919 1.2819 94.1571 0.0476311  249.869 1.27281 92.416 0.317941
376  250.029 1.30797 83.2309 -0.00816293  249.631 1.30201 90.2561 0.80505  250.181 1.29389 86.1829 0.0207192  250.126 1.29965 81.5163 0.0753796
378  250.258 1.29383 75.0301 -0.551223  250.244 1.29468 82.9887 -0.272626  250.2 1.29931 85.8533 -0.682306  250.322 1.27534 82.0969 -0.431277
380  249.806 1.27066 94.734 -0.0289391  249.841 1.24377 95.3137 0.218563  250.037 1.2896 84.6132 0.304034  250.196 1.26679 84.1276 -0.557757
382  250.145 1.26184 84.926 0.101715  250.143 1.26959 88.5342 -0.740642  250.119 1.28858 81.226 0.200179  250.241 1.26891 82.1796 -0.644419
384  249.784 1.2788 91.557 0.763254  249.807 1.26233 96.8266 0.345383  250.158 1.259 86.8794 -0.150093  250.18 1.26335 84.8055 -0.133431
386  249.795 1.27121 99.8627 0.191638  249.562 1.28628 87.7762 0.243872  250.239 1.27273 92.746 0.159381  249.955 1.26841 90.2168 0.068733
388  250.343 1.2873 78.5533 -0.577019  249.955 1.2872 92.2602 0.0840502  249.895 1.28145 90.8969 -0.199848  249.885 1.28045 94.4741 -0.108709
390  250.271 1.2685 81.3557 -0.69184  250.132 1.25828 85.8809 -0.010459  250.102 1.25671 96.5459 0.101094  250.006 1.25689 85.4849 -0.241158
392  249.676 1.29317 86.928 0.336243  249.89 1.28813 90.1079 -0.0203634  250.241 1.29384 76.131 0.142053  250.203 1.28726 82.7145 -0.240728
394  249.577 1.25085 94.0343 -0.20933  249.763 1.24849 100.062 -0.0909609  249.796 1.23851 90.2746 -0.223249  249.97 1.23324 94.9124 -0.0147588
396  249.516 1.27507 93.7235 0.660919  250.07 1.27485 86.391 -0.249034  249.958 1.27271 91.2323 0.140697  249.797 1.2773 93.5896 -0.0574822
398  250.151 1.24812 90.5417 -0.353372  249.761 1.24602 105.043 -0.156917  249.484 1.24455 102.749 0.0858931  250.277 1.24495 90.0642 -0.850045
400  250.042 1.29134 80.4296 -0.16131  249.969 1.28006 91.5027 0.259275  249.857 1.28036 89.9928 0.279259  250.124 1.28701 84.3114 -0.369592
402  250.027 1.30111 84.5864 0.420371  249.829 1.28412 89.0566 0.2816  249.991 1.3031 81.4657 -0.0885462  250.206 1.28408 80.4198 -0.37994
404  249.863 1.29452 87.168 0.0376658  249.957 1.27952 84.7691 0.166365  250.174 1.27118 90.3036 0.140809  250.041 1.26461 83.232 0.183062
406  250.416 1.24487 78.8243 -0.200976  249.823 1.2408 90.1875 0.611278  249.845 1.24448 91.1315 0.192465  249.911 1.24395 90.5874 0.0382784
408  249.818 1.31359 85.8509 0.313402  250.063 1.30255 86.8283 -0.132185  250.164 1.29508 79.01 -0.130069  249.51 1.30582 102.233 0.17467
410  250.054 1.26063 95.083 0.250908  249.696 1.26653 104.451 -0.00290914  249.97 1.25838 95.1029 -0.263265  249.952 1.27146 94.4228 0.0208499
412  249.483 1.27487 104.348 0.750486  249.324 1.26354 104.179 1.2465  249.997 1.26986 95.759 0.122516  249.707 1.27127 98.6082 0.755536
414  250.285 1.30702 81.3738 -0.343052  250.121 1.29286 85.5574 -0.305776  249.974 1.29629 86.0117 -0.0203294  250.195 1.28645 85.4624 -0.533306
416  0 1.44 60 0  0 1.44 60 0  0 1.44 60 0  0 1.44 60 0
418  0 1.44 60 0  0 1.44 60 0  0 1.44 60 0  0 1.44 60 0
420  0 1.44 60 0  0 1.44 60 0  0 1.44 60 0  0 1.44 60 0
422  0 1.44 60 0  0 1.44 60 0  0 1.44 60 0  0 1.44 60 0
424  0 1.44 60 0  0 1.44 60 0  0 1.44 60 0  0 1.44 60 0
426  249.451 1.30765 95.6398 0.578541  249.774 1.30225 86.0392 0.351492  249.997 1.30163 80.8358 -0.393937  250.328 1.31148 74.3568 -0.102637
428  0 1.44 60 0  0 1.44 60 0  0 1.44 60 0  0 1.44 60 0
430  249.88 1.32065 91.8356 -0.161989  250.311 1.31405 76.8902 -0.383343  250.063 1.31959 85.4848 -0.584714  250.023 1.31954 84.8707 0.450545
432  250.124 1.27051 82.7047 -0.0862793  250.378 1.2635 82.2181 -0.730786  250.304 1.26419 79.7436 -0.0125841  250.485 1.26481 79.7876 -0.71201
434  249.981 1.26133 95.317 -0.119386  250.239 1.26629 87.1943 -0.145702  249.528 1.27698 106.656 0.419027  250.073 1.27233 96.6271 -0.131501
436  250.074 1.25176 93.4313 -0.0229922  250.139 1.24046 84.6521 -0.398636  250.071 1.24891 87.0305 -0.12839  249.866 1.24491 88.1295 0.444224
438  249.822 1.24096 94.9207 -0.225128  249.878 1.25229 102.194 0.230651  249.459 1.2546 96.1095 0.553816  250.061 1.23922 86.2133 -0.202895
440  249.9 1.28614 88.0528 0.407858  250.018 1.25763 91.4846 0.0281669  249.716 1.27414 99.3065 0.306233  249.798 1.27528 90.9592 0.233017
442  249.618 1.30168 86.7962 -0.108677  250.128 1.27805 94.4876 0.0566139  249.825 1.28182 93.1349 0.447257  250.341 1.28488 84.2221 -0.584394
444  0 1.44 60 0  0 1.44 60 0  0 1.44 60 0  0 1.44 60 0
446  0 1.44 60 0  0 1.44 60 0  0 1.44 60 0  0 1.44 60 0
448  0 1.44 60 0  0 1.44 60 0  0 1.44 60 0  0 1.44 60 0
450  0 1.44 60 0  0 1.44 60 0  0 1.44 60 0  0 1.44 60 0
452  0 1.44 60 0  0 1.44 60 0  0 1.44 60 0  0 1.44 60 0
454  0 1.44 60 0  0 1.44 60 0  0 1.44 60 0  0 1.44 60 0
456  0 1.44 60 0  0 1.44 60 0  0 1.44 60 0  0 1.44 60 0
458  250.379 1.32698 75.9502 -0.734719  250.201 1.30686 84.0604 -0.119011  250.334 1.3273 77.3946 -0.721705  249.947 1.31486 88.2637 0.452857
460  249.602 1.25197 90.9689 -0.284484  249.866 1.25033 98.2637 0.0585989  249.682 1.26391 88.5333 0.116503  250.165 1.25171 81.385 -0.158611
462  249.961 1.2376 92.3229 0.0914232  249.969 1.2484 95.5044 0.0671045  249.372 1.24467 102.308 0.31941  250.158 1.25319 83.4271 -0.061957
464  250.239 1.2464 87.374 -0.193854  249.971 1.24137 92.0305 0.274372  249.736 1.24348 97.7794 0.205237  250.18 1.2444 90.3699 -0.462765
466  250.016 1.27755 82.8697 0.15054  250.043 1.28259 86.6278 -0.0560467  249.938 1.26945 90.0872 0.345438  249.823 1.26702 91.5288 -0.130176
468  0 1.44 60 0  0 1.44 60 0  0 1.44 60 0  0 1.44 60 0
470  0 1.44 60 0  0 1.44 60 0  0 1.44 60 0  0 1.44 60 0
472  0 1.44 60 0  0 1.44 60 0  0 1.44 60 0  0 1.44 60 0
474  0 1.44 60 0  0 1.44 60 0  0 1.44 60 0  0 1.44 60 0
476  0 1.44 60 0  0 1.44 60 0  0 1.44 60 0  0 1.44 60 0
478  0 1.44 60 0  0 1.44 60 0  0 1.44 60 0  0 1.44 60 0
480  0 1.44 60 0  0 1.44 60 0  0 1.44 60 0  0 1.44 60 0
482  0 1.44 60 0  0 1.44 60 0  0 1.44 60 0  0 1.44 60 0
484  0 1.44 60 0  0 1.44 60 0  0 1.44 60 0  0 1.44 60 0
486  0 1.44 60 0  0 1.44 60 0  0 1.44 60 0  0 1.44 60 0
488  249.904 1.29109 86.082 -0.290183  250.04 1.29986 89.5957 -0.200007  249.957 1.29245 92.3096 -0.127343  249.935 1.2906 87.9579 0.446785
490  249.999 1.29013 82.9365 -0.319827  250.04 1.29595 83.4395 -0.34274  250.139 1.27932 84.3643 -0.130009  249.965 1.29085 86.9667 -0.072484
492  250.481 1.28596 76.4812 -0.573423  249.914 1.26756 85.8272 -0.656522  250.036 1.26852 84.8291 0.380752  250.09 1.29107 85.8837 0.290579
494  249.977 1.30636 79.4948 0.154164  250.313 1.30083 79.0805 -0.343335  250.107 1.31123 73.5503 0.366384  250.22 1.30755 84.8426 0.276042
496  0 1.44 60 0  0 1.44 60 0  0 1.44 60 0  0 1.44 60 0
498  249.338 1.29464 91.3087 0.502206  250.264 1.30122 81.9401 -0.261092  250.133 1.30814 77.7444 -0.0817218  250.121 1.30305 79.1512 -0.189706
500  250.146 1.25031 91.5061 0.154726  250.039 1.25264 91.556 -0.0110331  249.642 1.2463 97.1329 0.0921174  250.022 1.26812 97.1122 0.102264
502  249.509 1.26496 107.375 0.340558  250.084 1.28139 89.8939 0.0244837  249.901 1.25645 98.5822 0.115865  250.116 1.25987 86.602 0.0559439
504  0 1.44 60 0  0 1.44 60 0  0 1.44 60 0  0 1.44 60 0
506  0 1.44 60 0  0 1.44 60 0  0 1.44 60 0  0 1.44 60 0
508  249.671 1.29414 84.7554 0.0834738  250.279 1.30612 84.3916 -0.189611  249.969 1.30486 86.635 0.346344  249.866 1.31476 99.3551 0.218373
510  0 1.44 60 0  0 1.44 60 0  0 1.44 60 0  0 1.44 60 0
512  249.97 1.32205 84.0323 0.20542  249.847 1.3087 87.4449 0.768248  249.75 1.31307 84.9518 -0.086711  249.477 1.31186 95.5644 1.00019
514  249.988 1.29773 81.19 0.376256  249.836 1.30553 87.2752 0.577736  249.999 1.29912 79.1958 0.215551  250.012 1.30378 83.6133 0.46065
516  249.578 1.3435 97.1708 0.742445  249.923 1.3392 80.7745 -0.0454585  250.203 1.33937 87.2742 -0.550332  250.294 1.32601 79.6709 -0.278054
518  249.583 1.33896 90.9873 0.905602  250.496 1.32756 75.4268 -0.14904  249.975 1.33673 82.8328 0.2914  250.312 1.32577 76.7476 -0.514712
520  250.033 1.30721 80.1449 0.0501757  249.955 1.2819 95.2974 -0.0211696  250.152 1.28881 80.5892 -0.0940777  249.798 1.29517 90.1712 0.117533
522  249.821 1.28241 87.7026 -0.201934  249.873 1.28314 87.6944 -0.18091  249.287 1.27429 100.897 0.949267  249.708 1.28365 93.361 0.325732
524  249.583 1.28653 97.0266 0.28735  249.926 1.28834 90.0075 -0.23113  249.757 1.27581 91.5186 0.351117  249.988 1.27966 89.2673 0.259309
526  250.156 1.32128 79.9502 -0.179134  250.117 1.32013 76.4135 -0.268129  249.891 1.31807 88.7294 0.207351  250.222 1.32207 77.6237 -0.350115
528  250.176 1.30391 82.7823 -0.162583  249.841 1.31039 88.3908 0.440718  250.171 1.30989 80.4127 -0.710711  250.124 1.29902 78.1751 -0.406491
530  250.219 1.32513 76.1467 -0.216652  250.022 1.34013 76.7179 -0.252998  249.742 1.34151 88.8295 0.0406077  250.15 1.32919 73.4424 -0.411691
532  250.002 1.30854 85.3588 -0.128861  250.234 1.30321 83.8579 -0.145205  250.091 1.30467 79.6103 -0.23872  249.712 1.29665 87.3439 -0.103838
534  249.687 1.29838 90.197 0.633128  250.153 1.30076 79.6737 0.195996  249.875 1.30129 84.0228 0.553801  250.211 1.29533 82.5815 -0.380041
536  250.425 1.30323 73.7026 -0.438114  249.951 1.30172 82.0753 0.45876  249.946 1.29288 84.8253 0.150777  249.959 1.28982 87.9449 -0.270147
538  0 1.44 60 0  0 1.44 60 0  0 1.44 60 0  0 1.44 60 0
540  0 1.44 60 0  0 1.44 60 0  0 1.44 60 0  0 1.44 60 0
542  0 1.44 60 0  0 1.44 60 0  0 1.44 60 0  0 1.44 60 0
544  249.345 1.22651 93.1117 0.616509  249.855 1.23056 85.2603 0.30044  249.715 1.22823 83.7215 -0.226625  250.253 1.23369 85.6707 -0.516664
546  250.467 1.28423 82.2212 -0.445371  249.357 1.28239 95.0132 1.02318  250.301 1.28289 85.885 -0.0809325  250.154 1.29678 81.7814 -0.0267135
548  249.564 1.25058 94.5756 -0.0614748  249.429 1.24203 98.4177 1.15516  250.069 1.24327 87.8898 0.159109  249.673 1.22846 94.8222 0.36536
550  250.119 1.2898 91.5537 -0.174568  249.733 1.28377 90.661 0.140511  249.865 1.26763 99.2179 -0.0876383  250.141 1.2929 80.188 -0.148472
552  250.281 1.28234 85.4602 -0.160249  249.812 1.27177 91.6674 0.174872  249.771 1.26784 91.0978 0.309324  249.941 1.3032 89.6792 0.115296
554  250.003 1.25277 91.0352 -0.0847766  250.172 1.25171 97.1512 -0.616925  249.639 1.23488 106.532 0.41328  249.782 1.24387 93.7494 0.56111
556  250.226 1.28242 88.5569 0.196725  249.783 1.26776 96.0292 -0.0885517  250.012 1.27007 97.373 0.22482  250.382 1.27735 79.8823 -0.414361
558  249.869 1.27901 93.8577 0.504189  250.091 1.27892 93.8596 0.0935216  249.622 1.27338 106.028 0.203993  250.191 1.29175 86.8957 -0.311744
560  250.356 1.26546 85.6401 -0.291212  250.244 1.30003 82.2789 0.304701  249.998 1.27213 97.6091 0.0227644  250.177 1.28988 83.535 -0.277456
562  250.015 1.30149 80.359 0.157783  249.722 1.31642 90.3223 0.0812221  249.771 1.31014 94.0858 0.727284  249.924 1.318 90.8518 -0.148658
564  250.107 1.31681 83.8892 -0.674061  250.315 1.32127 75.5328 0.036161  250.157 1.33006 80.6282 -0.284516  250.007 1.31572 82.6194 -0.381418
566  250.054 1.24939 93.0652 -0.206849  250.162 1.26986 94.279 -0.694995  250.219 1.24693 90.83 0.199137  249.944 1.25953 98.2128 0.493174
568  250.453 1.26306 88.7248 -0.13957  249.683 1.28583 105.597 0.100638  250.225 1.26244 91.264 -0.0589585  250.068 1.27669 90.3845 -0.00299651
570  249.629 1.24457 104.881 0.0454675  249.821 1.26125 105.173 0.54933  249.868 1.24399 108.146 0.290345  249.825 1.24668 108.387 0.285172
572  250.298 1.28609 93.5405 -0.261761  250.345 1.29471 88.541 -0.361974  249.858 1.27591 113.647 0.208854  250.091 1.29395 96.5649 0.0482785
574  0 1.44 60 0  0 1.44 60 0  0 1.44 60 0  0 1.44 60 0
576  249.795 1.327 88.2915 -0.0927367  249.918 1.33146 83.667 0.344075  249.451 1.30395 85.214 0.776025  249.835 1.33146 79.1517 -0.342415
578  250.061 1.27715 104.606 -0.0123646  250.422 1.28315 84.459 -0.682716  249.966 1.2802 99.0502 -0.0920841  250.091 1.31052 92.3092 -0.423
580  250.361 1.29259 87.5421 -0.177684  250.355 1.30609 86.3027 -0.153021  249.456 1.28584 114.489 0.791426  249.953 1.28684 95.9905 0.147024
582  249.752 1.30258 88.5602 0.38655  249.649 1.29286 95.4744 0.890773  250.164 1.29359 90.5585 0.191156  249.92 1.29899 101.247 -0.0368544
584  249.909 1.28727 94.1574 0.445907  250.113 1.28189 89.4567 -0.357945  249.846 1.28404 100.903 0.167645  249.727 1.28666 96.7605 0.105692
586  249.669 1.30368 89.6205 0.314955  249.919 1.31062 96.8215 0.350531  249.884 1.288 94.1846 0.135025  249.997 1.30078 96.195 0.251294
588  249.975 1.33089 89.254 0.107384  250.072 1.32277 87.277 -0.13014  250.14 1.31792 90.0775 -0.291891  250.272 1.31794 84.0172 -0.069655
590  249.716 1.25723 102.411 0.883525  249.835 1.27102 96.0548 0.652666  250.036 1.27895 92.7081 -0.394946  249.945 1.2756 95.5619 0.245813
592  249.442 1.3056 102.734 0.379813  250.131 1.28822 85.9417 -0.0690988  249.479 1.30537 103.507 0.323438  250.154 1.31332 89.5069 -0.287182
594  250.122 1.26712 90.3566 -0.00411567  249.941 1.27939 95.9927 -0.131578  250.303 1.27725 82.8725 -0.468303  249.732 1.26629 94.8788 0.337402
596  250.005 1.30246 91.0212 -0.00369012  249.503 1.31501 96.2093 0.261031  250.131 1.29987 87.2233 -0.435557  249.524 1.32755 96.5101 0.0211022
598  249.624 1.2548 109.628 -0.00470665  250.166 1.26781 91.5348 -0.326957  250.414 1.26326 89.9442 0.0409162  249.793 1.26252 103.512 0.120053
600  249.979 1.26986 97.4588 -0.11279  249.974 1.26883 92.5032 -0.358334  250.155 1.24593 96.296 -0.116726  250.212 1.25544 97.1789 -0.327414
602  249.987 1.27834 102.591 0.205711  250.284 1.28224 88.9145 -0.500405  249.698 1.25629 111.622 0.281201  250.322 1.27275 89.2891 -0.637311
604  249.892 1.32293 93.6759 -0.0483635  250.139 1.32787 87.1943 -0.122848  249.877 1.32567 92.6922 -0.121652  249.868 1.33132 89.358 -0.306628
606  249.328 1.30582 104.501 0.505219  250.047 1.31018 93.1423 0.0267608  250.057 1.29987 86.6461 -0.355675  249.861 1.32221 97.0689 0.344147
608  0 1.44 60 0  0 1.44 60 0  0 1.44 60 0  0 1.44 60 0
610  249.799 1.26244 98.0155 -0.0606826  250.315 1.27099 89.7261 -0.751432  249.933 1.26818 93.6511 -0.107888  250.299 1.27125 92.6869 -0.70367
612  249.606 1.2668 102.526 0.424432  250.378 1.27692 85.9857 -0.04213  249.961 1.24991 97.9729 0.0419766  250.266 1.27695 85.5015 -0.249959
614  249.901 1.28457 88.3102 0.0845877  250.185 1.29834 88.689 -0.0795501  249.861 1.27903 95.7077 0.228019  250.314 1.28398 83.3696 -0.333556
616  250.005 1.29233 93.8803 -0.0544705  249.66 1.30154 104.519 0.981998  249.865 1.29308 97.6536 0.285354  249.663 1.2911 104.311 0.97344
618  250.421 1.25633 91.0059 -0.452279  250.305 1.27207 89.6108 -0.675888  249.767 1.24525 110.102 0.151519  250.029 1.2695 98.4886 -0.531098
620  250.157 1.27459 89.311 0.0628308  249.725 1.28114 102.939 0.894715  250.036 1.26793 100.39 -0.00884516  249.724 1.26086 104.447 0.872936
622  249.894 1.27969 96.9157 0.207301  249.871 1.26565 102.795 0.143264  249.811 1.2666 101.122 0.498273  249.616 1.29364 113.141 0.72566
624  250.122 1.27134 87.9431 0.150295  250.084 1.27381 92.2122 -0.357763  249.624 1.26645 103.846 0.00818299  250.155 1.28504 89.292 0.275305
626  250.507 1.27405 84.4876 -0.0539334  249.847 1.30218 94.8065 0.117047  249.907 1.2949 88.633 0.0978478  249.618 1.29676 112.871 0.183767
628  249.693 1.26309 109.477 -0.0210534  250.265 1.27239 92.4012 -0.531396  250.328 1.27395 89.3597 -0.2752  250.148 1.27881 88.8178 -0.111369
630  250.119 1.29966 89.9323 -0.2179  249.589 1.30563 112.688 0.300423  249.937 1.29394 92.0436 0.440764  249.985 1.30097 102.587 -0.410804
632  250.233 1.23177 95.6711 -0.00191641  249.611 1.24624 123.903 0.0953002  249.891 1.23931 99.0689 -0.282653  249.996 1.25323 98.1978 -0.0466057
634  249.846 1.28083 107.282 0.0253471  250.074 1.31976 85.5972 -0.50309  250.244 1.29386 85.7045 0.293588  249.977 1.31509 93.5545 0.0599411
636  250.074 1.23858 97.5122 -0.616414  250.233 1.29201 99.3513 -0.509716  249.933 1.24924 112.738 0.42208  249.609 1.26548 111.946 0.371831
638  249.766 1.26542 108.936 0.223003  249.949 1.26813 104.061 0.0445317  249.731 1.26211 109.346 0.108129  249.906 1.26839 108.418 0.0644456
639  245.077 1.16015 117.93 -0.334221  250.028 1.19571 116.151 -0.102042  248.698 1.15821 117.283 -0.159483  249.659 1.16603 131.106 0.527431