File: Calibration/XRD_TRIMDAC_CAL/testCcat
0  32 32 32 32 0  32 32 32 32
1  32 32 32 32 1  32 32 32 32
2  0 0 0 0 2  32 32 32 32
3  32 32 32 32 3  32 32 32 32
4  32 32 32 32 4  32 32 32 32
5  32 32 32 32 5  32 32 32 32
6  32 32 32 32 6  32 32 32 32
7  32 32 32 32 7  32 32 32 32
8  32 32 32 32 8  32 32 32 32
9  32 32 32 32 9  32 32 32 32
10  32 32 32 32 10  32 32 32 32
11  32 32 32 32 11  32 32 32 32
12  32 32 32 32 12  32 32 32 32
13  32 32 32 32 13  32 32 32 32
14  32 32 32 32 14  32 32 32 32
15  32 32 32 32 15  32 32 32 32
16  32 32 32 32 16  32 32 32 32
17  32 32 32 32 17  32 32 32 32
18  32 32 32 32 18  32 32 32 32
19  32 32 32 32 19  32 32 32 32
20  32 32 32 32 20  32 32 32 32
21  32 32 32 32 21  32 32 32 32
22  32 32 32 32 22  32 32 32 32
23  32 32 32 32 23  32 32 32 32
24  32 32 32 32 24  32 32 32 32
25  32 32 32 32 25  32 32 32 32
26  32 32 32 32 26  32 32 32 32
27  32 32 32 32 27  32 32 32 32
28  32 32 32 32 28  32 32 32 32
29  32 32 32 32 29  32 32 32 32
30  32 32 32 32 30  32 32 32 32
31  32 32 32 32 31  32 32 32 32
32  32 32 32 32 32  32 32 32 32
33  32 32 32 32 33  32 32 32 32
34  32 32 32 32 34  32 32 32 32
35  32 32 32 32 35  32 32 32 32
36  32 32 32 32 36  32 32 32 32
37  32 32 32 32 37  32 32 32 32
38  32 32 32 32 38  32 32 32 32
39  32 32 32 32 39  32 32 32 32
40  32 32 32 32 40  32 32 32 32
41  32 32 32 32 41  32 32 32 32
42  32 32 32 32 42  32 32 32 32
43  32 32 32 32 43  32 32 32 32
44  32 32 32 32 44  32 32 32 32
45  32 32 32 32 45  32 32 32 32
46  32 32 32 32 46  32 32 32 32
47  32 32 32 32 47  32 32 32 32
48  32 32 32 32 48  32 32 32 32
49  32 32 32 32 49  32 32 32 32
50  32 32 32 32 50  32 32 32 32
51  32 32 32 32 51  32 32 32 32
52  32 32 32 32 52  32 32 32 32
53  32 32 32 32 53  32 32 32 32
54  32 32 32 32 54  32 32 32 32
55  32 32 32 32 55  32 32 32 32
56  32 32 32 32 56  32 32 32 32
57  32 32 32 32 57  32 32 32 32
58  32 32 32 32 58  32 32 32 32
59  32 32 32 32 59  32 32 32 32
60  32 32 32 32 60  32 32 32 32
61  32 32 32 32 61  32 32 32 32
62  32 32 32 32 62  32 32 32 32
63  32 32 32 32 63  32 32 32 32
64  32 32 32 32 64  32 32 32 32
65  32 32 32 32 65  32 32 32 32
66  32 32 32 32 66  32 32 32 32
67  32 32 32 32 67  32 32 32 32
68  32 32 32 32 68  32 32 32 32
69  32 32 32 32 69  32 32 32 32
70  32 32 32 32 70  32 32 32 32
71  32 32 32 32 71  32 32 32 32
72  32 32 32 32 72  32 32 32 32
73  32 32 32 32 73  32 32 32 32
74  32 32 32 32 74  32 32 32 32
75  32 32 32 32 75  32 32 32 32
76  32 32 32 32 76  32 32 32 32
77  32 32 32 32 77  32 32 32 32
78  32 32 32 32 78  32 32 32 32
79  32 32 32 32 79  32 32 32 32
80  32 32 32 32 80  32 32 32 32
81  32 32 32 32 81  32 32 32 32
82  32 32 32 32 82  32 32 32 32
83  32 32 32 32 83  32 32 32 32
84  32 32 32 32 84  32 32 32 32
85  32 32 32 32 85  32 32 32 32
86  32 32 32 32 86  32 32 32 32
87  32 32 32 32 87  32 32 32 32
88  32 32 32 32 88  32 32 32 32
89  32 32 32 32 89  32 32 32 32
90  32 32 32 32 90  32 32 32 32
91  32 32 32 32 91  32 32 32 32
92  32 32 32 32 92  32 32 32 32
93  32 32 32 32 93  32 32 32 32
94  32 32 32 32 94  32 32 32 32
95  32 32 32 32 95  32 32 32 32
96  32 32 32 32 96  32 32 32 32
97  32 32 32 32 97  32 32 32 32
98  32 32 32 32 98  32 32 32 32
99  32 32 32 32 99  32 32 32 32
100  32 32 32 32 100  32 32 32 32
101  32 32 32 32 101  32 32 32 32
102  32 32 32 32 102  32 32 32 32
103  32 32 32 32 103  32 32 32 32
104  32 32 32 32 104  32 32 32 32
105  32 32 32 32 105  32 32 32 32
106  32 32 32 32 106  32 32 32 32
107  32 32 32 32 107  32 32 32 32
108  32 32 32 32 108  32 32 32 32
109  32 32 32 32 109  32 32 32 32
110  32 32 32 32 110  32 32 32 32
111  32 32 32 32 111  32 32 32 32
112  32 32 32 32 112  32 32 32 32
113  32 32 32 32 113  32 32 32 32
114  32 32 32 32 114  32 32 32 32
115  32 32 32 32 115  32 32 32 32
116  32 32 32 32 116  32 32 32 32
117  32 32 32 32 117  32 32 32 32
118  32 32 32 32 118  32 32 32 32
119  32 32 32 32 119  32 32 32 32
120  32 32 32 32 120  32 32 32 32
121  32 32 32 32 121  32 32 32 32
122  32 32 32 32 122  32 32 32 32
123  32 32 32 32 123  32 32 32 32
124  32 32 32 32 124  32 32 32 32
125  32 32 32 32 125  32 32 32 32
126  32 32 32 32 126  32 32 32 32
127  32 32 32 32 127  32 32 32 32
128  32 32 32 32 128  32 32 32 32
129  32 32 32 32 129  32 32 32 32
130  32 32 32 32 130  32 32 32 32
131  32 32 32 32 131  32 32 32 32
132  32 32 32 32 132  32 32 32 32
133  32 32 32 32 133  32 32 32 32
134  32 32 32 32 134  32 32 32 32
135  32 32 32 32 135  32 32 32 32
136  32 32 32 32 136  32 32 32 32
137  32 32 32 32 137  32 32 32 32
138  32 32 32 32 138  32 32 32 32
139  32 32 32 32 139  32 32 32 32
140  32 32 32 32 140  32 32 32 32
141  32 32 32 32 141  32 32 32 32
142  32 32 32 32 142  32 32 32 32
143  32 32 32 32 143  32 32 32 32
144  32 32 32 32 144  32 32 32 32
145  32 32 32 32 145  32 32 32 32
146  32 32 32 32 146  32 32 32 32
147  32 32 32 32 147  32 32 32 32
148  32 32 32 32 148  32 32 32 32
149  32 32 32 32 149  32 32 32 32
150  32 32 32 32 150  32 32 32 32
151  32 32 32 32 151  32 32 32 32
152  32 32 32 32 152  32 32 32 32
153  32 32 32 32 153  32 32 32 32
154  32 32 32 32 154  32 32 32 32
155  32 32 32 32 155  32 32 32 32
156  32 32 32 32 156  32 32 32 32
157  32 32 32 32 157  32 32 32 32
158  32 32 32 32 158  32 32 32 32
159  32 32 32 32 159  32 32 32 32
160  32 32 32 32 160  32 32 32 32
161  32 32 32 32 161  32 32 32 32
162  32 32 32 32 162  32 32 32 32
163  32 32 32 32 163  32 32 32 32
164  32 32 32 32 164  32 32 32 32
165  32 32 32 32 165  32 32 32 32
166  32 32 32 32 166  32 32 32 32
167  32 32 32 32 167  32 32 32 32
168  32 32 32 32 168  32 32 32 32
169  32 32 32 32 169  32 32 32 32
170  32 32 32 32 170  32 32 32 32
171  32 32 32 32 171  32 32 32 32
172  32 32 32 32 172  32 32 32 32
173  32 32 32 32 173  32 32 32 32
174  32 32 32 32 174  32 32 32 32
175  32 32 32 32 175  32 32 32 32
176  32 32 32 32 176  32 32 32 32
177  32 32 32 32 177  32 32 32 32
178  32 32 32 32 178  32 32 32 32
179  32 32 32 32 179  32 32 32 32
180  32 32 32 32 180  32 32 32 32
181  32 32 32 32 181  32 32 32 32
182  32 32 32 32 182  32 32 32 32
183  32 32 32 32 183  32 32 32 32
184  32 32 32 32 184  32 32 32 32
185  32 32 32 32 185  32 32 32 32
186  32 32 32 32 186  32 32 32 32
187  32 32 32 32 187  32 32 32 32
188  32 32 32 32 188  32 32 32 32
189  32 32 32 32 189  32 32 32 32
190  32 32 32 32 190  32 32 32 32
191  32 32 32 32 191  32 32 32 32
192  32 32 32 32 192  32 32 32 32
193  32 32 32 32 193  32 32 32 32
194  32 32 32 32 194  32 32 32 32
195  32 32 32 32 195  32 32 32 32
196  32 32 32 32 196  32 32 32 32
197  32 32 32 32 197  32 32 32 32
198  32 32 32 32 198  32 32 32 32
199  32 32 32 32 199  32 32 32 32
200  32 32 32 32 200  32 32 32 32
201  32 32 32 32 201  32 32 32 32
202  32 32 32 32 202  32 32 32 32
203  32 32 32 32 203  32 32 32 32
204  32 32 32 32 204  32 32 32 32
205  32 32 32 32 205  32 32 32 32
206  32 32 32 32 206  32 32 32 32
207  32 32 32 32 207  32 32 32 32
208  32 32 32 32 208  32 32 32 32
209  32 32 32 32 209  32 32 32 32
210  32 32 32 32 210  32 32 32 32
211  32 32 32 32 211  32 32 32 32
212  32 32 32 32 212  32 32 32 32
213  32 32 32 32 213  32 32 32 32
214  32 32 32 32 214  32 32 32 32
215  32 32 32 32 215  32 32 32 32
216  32 32 32 32 216  32 32 32 32
217  32 32 32 32 217  32 32 32 32
218  32 32 32 32 218  32 32 32 32
219  32 32 32 32 219  32 32 32 32
220  32 32 32 32 220  32 32 32 32
221  32 32 32 32 221  32 32 32 32
222  32 32 32 32 222  32 32 32 32
223  32 32 32 32 223  32 32 32 32
224  32 32 32 32 224  32 32 32 32
225  32 32 32 32 225  32 32 32 32
226  32 32 32 32 226  32 32 32 32
227  32 32 32 32 227  32 32 32 32
228  32 32 32 32 228  32 32 32 32
229  32 32 32 32 229  32 32 32 32
230  32 32 32 32 230  32 32 32 32
231  32 32 32 32 231  32 32 32 32
232  32 32 32 32 232  32 32 32 32
233  32 32 32 32 233  32 32 32 32
234  32 32 32 32 234  32 32 32 32
235  32 32 32 32 235  32 32 32 32
236  32 32 32 32 236  32 32 32 32
237  32 32 32 32 237  32 32 32 32
238  32 32 32 32 238  32 32 32 32
239  32 32 32 32 239  32 32 32 32
240  32 32 32 32 240  32 32 32 32
241  32 32 32 32 241  32 32 32 32
242  32 32 32 32 242  32 32 32 32
243  32 32 32 32 243  32 32 32 32
244  32 32 32 32 244  32 32 32 32
245  32 32 32 32 245  32 32 32 32
246  32 32 32 32 246  32 32 32 32
247  32 32 32 32 247  32 32 32 32
248  32 32 32 32 248  32 32 32 32
249  32 32 32 32 249  32 32 32 32
250  32 32 32 32 250  32 32 32 32
251  32 32 32 32 251  32 32 32 32
252  32 32 32 32 252  32 32 32 32
253  32 32 32 32 253  32 32 32 32
254  32 32 32 32 254  32 32 32 32
255  32 32 32 32 255  32 32 32 32
256  32 32 32 32 256  32 32 32 32
257  32 32 32 32 257  32 32 32 32
258  32 32 32 32 258  32 32 32 32
259  32 32 32 32 259  32 32 32 32
260  32 32 32 32 260  32 32 32 32
261  32 32 32 32 261  32 32 32 32
262  32 32 32 32 262  32 32 32 32
263  32 32 32 32 263  32 32 32 32
264  32 32 32 32 264  32 32 32 32
265  32 32 32 32 265  32 32 32 32
266  32 32 32 32 266  32 32 32 32
267  32 32 32 32 267  32 32 32 32
268  32 32 32 32 268  32 32 32 32
269  32 32 32 32 269  32 32 32 32
270  32 32 32 32 270  32 32 32 32
271  32 32 32 32 271  32 32 32 32
272  32 32 32 32 272  32 32 32 32
273  32 32 32 32 273  32 32 32 32
274  32 32 32 32 274  32 32 32 32
275  32 32 32 32 275  32 32 32 32
276  32 32 32 32 276  32 32 32 32
277  32 32 32 32 277  32 32 32 32
278  32 32 32 32 278  32 32 32 32
279  32 32 32 32 279  32 32 32 32
280  32 32 32 32 280  32 32 32 32
281  32 32 32 32 281  32 32 32 32
282  32 32 32 32 282  32 32 32 32
283  32 32 32 32 283  32 32 32 32
284  32 32 32 32 284  32 32 32 32
285  32 32 32 32 285  32 32 32 32
286  32 32 32 32 286  32 32 32 32
287  32 32 32 32 287  32 32 32 32
288  32 32 32 32 288  32 32 32 32
289  32 32 32 32 289  32 32 32 32
290  32 32 32 32 290  32 32 32 32
291  32 32 32 32 291  32 32 32 32
292  32 32 32 32 292  32 32 32 32
293  32 32 32 32 293  32 32 32 32
294  32 32 32 32 294  32 32 32 32
295  32 32 32 32 295  32 32 32 32
296  32 32 32 32 296  32 32 32 32
297  32 32 32 32 297  32 32 32 32
298  32 32 32 32 298  32 32 32 32
299  32 32 32 32 299  32 32 32 32
300  32 32 32 32 300  32 32 32 32
301  32 32 32 32 301  32 32 32 32
302  32 32 32 32 302  32 32 32 32
303  32 32 32 32 303  32 32 32 32
304  32 32 32 32 304  32 32 32 32
305  32 32 32 32 305  32 32 32 32
306  32 32 32 32 306  32 32 32 32
307  32 32 32 32 307  32 32 32 32
308  32 32 32 32 308  32 32 32 32
309  32 32 32 32 309  32 32 32 32
310  32 32 32 32 310  32 32 32 32
311  32 32 32 32 311  32 32 32 32
312  32 32 32 32 312  32 32 32 32
313  32 32 32 32 313  32 32 32 32
314  32 32 32 32 314  32 32 32 32
315  32 32 32 32 315  32 32 32 32
316  32 32 32 32 316  32 32 32 32
317  32 32 32 32 317  32 32 32 32
318  32 32 32 32 318  32 32 32 32
319  32 32 32 32 319  32 32 32 32
320  32 32 32 32 320  32 32 32 32
321  32 32 32 32 321  32 32 32 32
322  32 32 32 32 322  32 32 32 32
323  32 32 32 32 323  32 32 32 32
324  32 32 32 32 324  32 32 32 32
325  32 32 32 32 325  32 32 32 32
326  32 32 32 32 326  32 32 32 32
327  32 32 32 32 327  32 32 32 32
328  32 32 32 32 328  32 32 32 32
329  32 32 32 32 329  32 32 32 32
330  32 32 32 32 330  32 32 32 32
331  32 32 32 32 331  32 32 32 32
332  32 32 32 32 332  32 32 32 32
333  32 32 32 32 333  32 32 32 32
334  32 32 32 32 334  32 32 32 32
335  32 32 32 32 335  32 32 32 32
336  32 32 32 32 336  32 32 32 32
337  32 32 32 32 337  32 32 32 32
338  32 32 32 32 338  32 32 32 32
339  32 32 32 32 339  32 32 32 32
340  32 32 32 32 340  32 32 32 32
341  32 32 32 32 341  32 32 32 32
342  32 32 32 32 342  32 32 32 32
343  32 32 32 32 343  32 32 32 32
344  32 32 32 32 344  32 32 32 32
345  32 32 32 32 345  32 32 32 32
346  32 32 32 32 346  32 32 32 32
347  32 32 32 32 347  32 32 32 32
348  32 32 32 32 348  32 32 32 32
349  32 32 32 32 349  32 32 32 32
350  32 32 32 32 350  32 32 32 32
351  32 32 32 32 351  32 32 32 32
352  32 32 32 32 352  32 32 32 32
353  32 32 32 32 353  32 32 32 32
354  32 32 32 32 354  32 32 32 32
355  32 32 32 32 355  32 32 32 32
356  32 32 32 32 356  32 32 32 32
357  32 32 32 32 357  32 32 32 32
358  32 32 32 32 358  32 32 32 32
359  32 32 32 32 359  32 32 32 32
360  32 32 32 32 360  32 32 32 32
361  32 32 32 32 361  32 32 32 32
362  32 32 32 32 362  32 32 32 32
363  32 32 32 32 363  32 32 32 32
364  32 32 32 32 364  32 32 32 32
365  32 32 32 32 365  32 32 32 32
366  32 32 32 32 366  32 32 32 32
367  32 32 32 32 367  32 32 32 32
368  32 32 32 32 368  32 32 32 32
369  32 32 32 32 369  32 32 32 32
370  32 32 32 32 370  32 32 32 32
371  32 32 32 32 371  32 32 32 32
372  32 32 32 32 372  32 32 32 32
373  32 32 32 32 373  32 32 32 32
374  32 32 32 32 374  32 32 32 32
375  32 32 32 32 375  32 32 32 32
376  32 32 32 32 376  32 32 32 32
377  32 32 32 32 377  32 32 32 32
378  32 32 32 32 378  32 32 32 32
379  32 32 32 32 379  32 32 32 32
380  32 32 32 32 380  32 32 32 32
381  32 32 32 32 381  32 32 32 32
382  32 32 32 32 382  32 32 32 32
383  32 32 32 32 383  32 32 32 32
384  32 32 32 32 384  32 32 32 32
385  32 32 32 32 385  32 32 32 32
386  32 32 32 32 386  32 32 32 32
387  32 32 32 32 387  32 32 32 32
388  32 32 32 32 388  32 32 32 32
389  32 32 32 32 389  32 32 32 32
390  32 32 32 32 390  32 32 32 32
391  32 32 32 32 391  32 32 32 32
392  32 32 32 32 392  32 32 32 32
393  32 32 32 32 393  32 32 32 32
394  32 32 32 32 394  32 32 32 32
395  32 32 32 32 395  32 32 32 32
396  32 32 32 32 396  32 32 32 32
397  32 32 32 32 397  32 32 32 32
398  32 32 32 32 398  32 32 32 32
399  32 32 32 32 399  32 32 32 32
400  32 32 32 32 400  32 32 32 32
401  32 32 32 32 401  32 32 32 32
402  32 32 32 32 402  32 32 32 32
403  32 32 32 32 403  32 32 32 32
404  32 32 32 32 404  32 32 32 32
405  32 32 32 32 405  32 32 32 32
406  32 32 32 32 406  32 32 32 32
407  32 32 32 32 407  32 32 32 32
408  32 32 32 32 408  32 32 32 32
409  32 32 32 32 409  32 32 32 32
410  32 32 32 32 410  32 32 32 32
411  32 32 32 32 411  32 32 32 32
412  32 32 32 32 412  32 32 32 32
413  32 32 32 32 413  32 32 32 32
414  32 32 32 32 414  32 32 32 32
415  32 32 32 32 415  32 32 32 32
416  32 32 32 32 416  32 32 32 32
417  32 32 32 32 417  32 32 32 32
418  32 32 32 32 418  32 32 32 32
419  32 32 32 32 419  32 32 32 32
420  32 32 32 32 420  32 32 32 32
421  32 32 32 32 421  32 32 32 32
422  32 32 32 32 422  32 32 32 32
423  32 32 32 32 423  32 32 32 32
424  32 32 32 32 424  32 32 32 32
425  32 32 32 32 425  32 32 32 32
426  32 32 32 32 426  32 32 32 32
427  32 32 32 32 427  32 32 32 32
428  32 32 32 32 428  32 32 32 32
429  32 32 32 32 429  32 32 32 32
430  32 32 32 32 430  32 32 32 32
431  32 32 32 32 431  32 32 32 32
432  32 32 32 32 432  32 32 32 32
433  32 32 32 32 433  32 32 32 32
434  32 32 32 32 434  32 32 32 32
435  32 32 32 32 435  32 32 32 32
436  32 32 32 32 436  32 32 32 32
437  32 32 32 32 437  32 32 32 32
438  32 32 32 32 438  32 32 32 32
439  32 32 32 32 439  32 32 32 32
440  32 32 32 32 440  32 32 32 32
441  32 32 32 32 441  32 32 32 32
442  32 32 32 32 442  32 32 32 32
443  32 32 32 32 443  32 32 32 32
444  32 32 32 32 444  32 32 32 32
445  32 32 32 32 445  32 32 32 32
446  32 32 32 32 446  32 32 32 32
447  32 32 32 32 447  32 32 32 32
448  32 32 32 32 448  32 32 32 32
449  32 32 32 32 449  32 32 32 32
450  32 32 32 32 450  32 32 32 32
451  32 32 32 32 451  32 32 32 32
452  32 32 32 32 452  32 32 32 32
453  32 32 32 32 453  32 32 32 32
454  32 32 32 32 454  32 32 32 32
455  32 32 32 32 455  32 32 32 32
456  32 32 32 32 456  32 32 32 32
457  32 32 32 32 457  32 32 32 32
458  32 32 32 32 458  32 32 32 32
459  32 32 32 32 459  32 32 32 32
460  32 32 32 32 460  32 32 32 32
461  32 32 32 32 461  32 32 32 32
462  32 32 32 32 462  32 32 32 32
463  32 32 32 32 463  32 32 32 32
464  32 32 32 32 464  32 32 32 32
465  32 32 32 32 465  32 32 32 32
466  32 32 32 32 466  32 32 32 32
467  32 32 32 32 467  32 32 32 32
468  32 32 32 32 468  32 32 32 32
469  32 32 32 32 469  32 32 32 32
470  32 32 32 32 470  32 32 32 32
471  32 32 32 32 471  32 32 32 32
472  32 32 32 32 472  32 32 32 32
473  32 32 32 32 473  32 32 32 32
474  32 32 32 32 474  32 32 32 32
475  32 32 32 32 475  32 32 32 32
476  32 32 32 32 476  32 32 32 32
477  32 32 32 32 477  32 32 32 32
478  32 32 32 32 478  32 32 32 32
479  32 32 32 32 479  32 32 32 32
480  32 32 32 32 480  32 32 32 32
481  32 32 32 32 481  32 32 32 32
482  32 32 32 32 482  32 32 32 32
483  32 32 32 32 483  32 32 32 32
484  32 32 32 32 484  32 32 32 32
485  32 32 32 32 485  32 32 32 32
486  32 32 32 32 486  32 32 32 32
487  32 32 32 32 487  32 32 32 32
488  32 32 32 32 488  32 32 32 32
489  32 32 32 32 489  32 32 32 32
490  32 32 32 32 490  32 32 32 32
491  32 32 32 32 491  32 32 32 32
492  32 32 32 32 492  32 32 32 32
493  32 32 32 32 493  32 32 32 32
494  32 32 32 32 494  32 32 32 32
495  32 32 32 32 495  32 32 32 32
496  32 32 32 32 496  32 32 32 32
497  32 32 32 32 497  32 32 32 32
498  32 32 32 32 498  32 32 32 32
499  32 32 32 32 499  32 32 32 32
500  32 32 32 32 500  32 32 32 32
501  32 32 32 32 501  32 32 32 32
502  32 32 32 32 502  32 32 32 32
503  32 32 32 32 503  32 32 32 32
504  32 32 32 32 504  32 32 32 32
505  32 32 32 32 505  32 32 32 32
506  32 32 32 32 506  32 32 32 32
507  32 32 32 32 507  32 32 32 32
508  32 32 32 32 508  32 32 32 32
509  32 32 32 32 509  32 32 32 32
510  32 32 32 32 510  32 32 32 32
511  32 32 32 32 511  32 32 32 32
512  32 32 32 32 512  32 32 32 32
513  32 32 32 32 513  32 32 32 32
514  32 32 32 32 514  32 32 32 32
515  32 32 32 32 515  32 32 32 32
516  32 32 32 32 516  32 32 32 32
517  32 32 32 32 517  32 32 32 32
518  32 32 32 32 518  32 32 32 32
519  32 32 32 32 519  32 32 32 32
520  32 32 32 32 520  32 32 32 32
521  32 32 32 32 521  32 32 32 32
522  32 32 32 32 522  32 32 32 32
523  32 32 32 32 523  32 32 32 32
524  32 32 32 32 524  32 32 32 32
525  32 32 32 32 525  32 32 32 32
526  32 32 32 32 526  32 32 32 32
527  32 32 32 32 527  32 32 32 32
528  32 32 32 32 528  32 32 32 32
529  32 32 32 32 529  32 32 32 32
530  32 32 32 32 530  32 32 32 32
531  32 32 32 32 531  32 32 32 32
532  32 32 32 32 532  32 32 32 32
533  32 32 32 32 533  32 32 32 32
534  32 32 32 32 534  32 32 32 32
535  32 32 32 32 535  32 32 32 32
536  32 32 32 32 536  32 32 32 32
537  32 32 32 32 537  32 32 32 32
538  32 32 32 32 538  32 32 32 32
539  32 32 32 32 539  32 32 32 32
540  32 32 32 32 540  32 32 32 32
541  32 32 32 32 541  32 32 32 32
542  32 32 32 32 542  32 32 32 32
543  32 32 32 32 543  32 32 32 32
544  32 32 32 32 544  32 32 32 32
545  32 32 32 32 545  32 32 32 32
546  32 32 32 32 546  32 32 32 32
547  32 32 32 32 547  32 32 32 32
548  32 32 32 32 548  32 32 32 32
549  32 32 32 32 549  32 32 32 32
550  32 32 32 32 550  32 32 32 32
551  32 32 32 32 551  32 32 32 32
552  32 32 32 32 552  32 32 32 32
553  32 32 32 32 553  32 32 32 32
554  32 32 32 32 554  32 32 32 32
555  32 32 32 32 555  32 32 32 32
556  32 32 32 32 556  32 32 32 32
557  32 32 32 32 557  32 32 32 32
558  32 32 32 32 558  32 32 32 32
559  32 32 32 32 559  32 32 32 32
560  32 32 32 32 560  32 32 32 32
561  32 32 32 32 561  32 32 32 32
562  32 32 32 32 562  32 32 32 32
563  32 32 32 32 563  32 32 32 32
564  32 32 32 32 564  32 32 32 32
565  32 32 32 32 565  32 32 32 32
566  32 32 32 32 566  32 32 32 32
567  32 32 32 32 567  32 32 32 32
568  32 32 32 32 568  32 32 32 32
569  32 32 32 32 569  32 32 32 32
570  32 32 32 32 570  32 32 32 32
571  32 32 32 32 571  32 32 32 32
572  32 32 32 32 572  32 32 32 32
573  32 32 32 32 573  32 32 32 32
574  32 32 32 32 574  32 32 32 32
575  32 32 32 32 575  32 32 32 32
576  32 32 32 32 576  32 32 32 32
577  32 32 32 32 577  32 32 32 32
578  32 32 32 32 578  32 32 32 32
579  32 32 32 32 579  32 32 32 32
580  32 32 32 32 580  32 32 32 32
581  32 32 32 32 581  32 32 32 32
582  32 32 32 32 582  32 32 32 32
583  32 32 32 32 583  32 32 32 32
584  32 32 32 32 584  32 32 32 32
585  32 32 32 32 585  32 32 32 32
586  32 32 32 32 586  32 32 32 32
587  32 32 32 32 587  32 32 32 32
588  32 32 32 32 588  32 32 32 32
589  32 32 32 32 589  32 32 32 32
590  32 32 32 32 590  32 32 32 32
591  32 32 32 32 591  32 32 32 32
592  32 32 32 32 592  32 32 32 32
593  32 32 32 32 593  32 32 32 32
594  32 32 32 32 594  32 32 32 32
595  32 32 32 32 595  32 32 32 32
596  32 32 32 32 596  32 32 32 32
597  32 32 32 32 597  32 32 32 32
598  32 32 32 32 598  32 32 32 32
599  32 32 32 32 599  32 32 32 32
600  32 32 32 32 600  32 32 32 32
601  32 32 32 32 601  32 32 32 32
602  32 32 32 32 602  32 32 32 32
603  32 32 32 32 603  32 32 32 32
604  32 32 32 32 604  32 32 32 32
605  32 32 32 32 605  32 32 32 32
606  32 32 32 32 606  32 32 32 32
607  32 32 32 32 607  32 32 32 32
608  32 32 32 32 608  32 32 32 32
609  32 32 32 32 609  32 32 32 32
610  32 32 32 32 610  32 32 32 32
611  32 32 32 32 611  32 32 32 32
612  32 32 32 32 612  32 32 32 32
613  32 32 32 32 613  32 32 32 32
614  32 32 32 32 614  32 32 32 32
615  32 32 32 32 615  32 32 32 32
616  32 32 32 32 616  32 32 32 32
617  32 32 32 32 617  32 32 32 32
618  32 32 32 32 618  32 32 32 32
619  32 32 32 32 619  32 32 32 32
620  32 32 32 32 620  32 32 32 32
621  32 32 32 32 621  32 32 32 32
622  32 32 32 32 622  32 32 32 32
623  32 32 32 32 623  32 32 32 32
624  32 32 32 32 624  32 32 32 32
625  32 32 32 32 625  32 32 32 32
626  32 32 32 32 626  32 32 32 32
627  32 32 32 32 627  32 32 32 32
628  32 32 32 32 628  32 32 32 32
629  32 32 32 32 629  32 32 32 32
630  32 32 32 32 630  32 32 32 32
631  32 32 32 32 631  32 32 32 32
632  32 32 32 32 632  32 32 32 32
633  32 32 32 32 633  32 32 32 32
634  32 32 32 32 634  32 32 32 32
635  32 32 32 32 635  32 32 32 32
636  32 32 32 32 636  32 32 32 32
637  32 32 32 32 637  0 0 0 0
638  32 32 32 32 638  32 32 32 32
639  32 32 32 32 639  32 32 32 32